{
  "resourceType" : "Bundle",
  "id" : "OPD-CONSULTATION-3207",
  "meta" : {
    "versionId" : "1",
    "lastUpdated" : "2025-04-04T12:13:01Z",
    "profile" : ["https://nrces.in/ndhm/fhir/r4/StructureDefinition/DocumentBundle"],
    "security" : [{
      "system" : "http://terminology.hl7.org/CodeSystem/v3-Confidentiality",
      "code" : "V",
      "display" : "very restricted"
    }]
  },
  "identifier" : {
    "system" : "http://hip.in",
    "value" : "567c55ac-e9dc-430f-a800-61ded1e456e2"
  },
  "type" : "document",
  "timestamp" : "2025-04-04T12:31:24.718Z",
  "entry" : [{
    "fullUrl" : "urn:uuid:43b45aba-e07e-450a-8b78-a7a74d63ba5f",
    "resource" : {
      "resourceType" : "Composition",
      "id" : "43b45aba-e07e-450a-8b78-a7a74d63ba5f",
      "meta" : {
        "versionId" : "1",
        "lastUpdated" : "2025-04-04T12:13:01Z",
        "profile" : ["https://nrces.in/ndhm/fhir/r4/StructureDefinition/OPConsultRecord"]
      },
      "language" : "en-IN",
      "text" : {
        "status" : "generated",
        "div" : "<div xmlns=\"http://www.w3.org/1999/xhtml\" xml:lang=\"en-IN\" lang=\"en-IN\"><p><b>Generated Narrative: Composition</b><a name=\"43b45aba-e07e-450a-8b78-a7a74d63ba5f\"> </a></p><div style=\"display: inline-block; background-color: #d9e0e7; padding: 6px; margin: 4px; border: 1px solid #8da1b4; border-radius: 5px; line-height: 60%\"><p style=\"margin-bottom: 0px\">Resource Composition &quot;43b45aba-e07e-450a-8b78-a7a74d63ba5f&quot; Version &quot;1&quot; Updated &quot;2020-07-11 15:32:26+0530&quot;  (Language &quot;en-IN&quot;) </p><p style=\"margin-bottom: 0px\">Profile: <a href=\"StructureDefinition-OPConsultRecord.html\">OPConsultRecord</a></p></div><p><b>identifier</b>: <code>https://ndhm.in/phr</code>/645bb0c3-ff7e-4123-bef5-3852a4784813</p><p><b>status</b>: final</p><p><b>type</b>: Clinical Consultation report <span style=\"background: LightGoldenRodYellow; margin: 4px; border: 1px solid khaki\"> (<a href=\"https://browser.ihtsdotools.org/\">SNOMED CT</a>#371530004 &quot;Clinical consultation report&quot;)</span></p><p><b>encounter</b>: <a href=\"#Encounter_a84bc585-a618-420b-ba92-98acf97c1506\">See above (urn:uuid:a84bc585-a618-420b-ba92-98acf97c1506: Encounter)</a></p><p><b>date</b>: 2020-07-12 15:32:26+0530</p><p><b>author</b>: <a href=\"#Practitioner_375003fb-f56d-4641-a0de-f87aa1da3f76\">See above (urn:uuid:375003fb-f56d-4641-a0de-f87aa1da3f76: Dr Amruta kadam)</a></p><p><b>title</b>: Consultation Report</p><p><b>custodian</b>: <a href=\"#Organization_928a6d70-b826-4432-9c9b-686cbfe94520\">See above (urn:uuid:928a6d70-b826-4432-9c9b-686cbfe94520: Chhota Sion Hospital)</a></p></div>"
      },
      "identifier" : {
        "system" : "https://ndhm.in/phr",
        "value" : "645bb0c3-ff7e-4123-bef5-3852a4784813"
      },
      "status" : "final",
      "type" : {
        "coding" : [{
          "system" : "http://snomed.info/sct",
          "code" : "371530004",
          "display" : "Clinical consultation report"
        }],
        "text" : "Clinical Consultation report"
      },
      "subject" : {
        "reference" : "urn:uuid:9dfd6d8c-4a2f-441e-b082-fe6fc4a3b9c0",
        "display" : "Madhura Adwant"
      },
      "encounter" : {
        "reference" : "urn:uuid:a84bc585-a618-420b-ba92-98acf97c1506",
        "display" : "Encounter"
      },
      "date" : "2025-04-04T12:13:01Z",
      "author" : [{
        "reference" : "urn:uuid:375003fb-f56d-4641-a0de-f87aa1da3f76",
        "display" : "Dr Amruta kadam"
      }],
      "title" : "Consultation Report",
      "custodian" : {
        "reference" : "urn:uuid:928a6d70-b826-4432-9c9b-686cbfe94520",
        "display" : "Chhota Sion Hospital"
      },
      "section" : [
      	 
      	{
        "title" : "Chief complaints",
        "code" : {
          "coding" : [{
            "system" : "http://snomed.info/sct",
            "code" : "422843007",
            "display" : "Chief complaint section"
          }]
        },
        "entry" : [
	        
	        {
	          "reference" : "urn:uuid:c90cd6c6-25aa-449d-a463-9635dbb0dcc0",
	          "display" : "Condition"
	        }
	        
        ]
      },
      
       
	      {
	        "title" : "Medical History",
	        "code" : {
	          "coding" : [{
	            "system" : "http://snomed.info/sct",
	            "code" : "371529009",
	            "display" : "History and physical report"
	          }]
	        },
	        "entry" : [
	        	
		        {
		          "reference" : "urn:uuid:ad926ec6-903a-4fdb-81fb-a2017d6e7e1b",
		          "display" : "Condition"
		        },
		        {
		          "reference" : "urn:uuid:d5e2f870-2f8d-4cf9-9fce-e6d1e8514696",
		          "display" : "Condition"
		        },
		        {
		          "reference" : "urn:uuid:8b0124f6-fbb3-40ae-b6db-f92e51036617",
		          "display" : "Condition"
		        },
		        {
		          "reference" : "urn:uuid:9f4d8708-a54e-4f26-a314-7a5329269002",
		          "display" : "Condition"
		        }
		        
		     ]
	      },
      
      
	      {
	        "title" : "Allergies",
	         "code" : {
              "coding" : [
                {
                  "system" : "http://snomed.info/sct",
                  "code" : "722446000",
                  "display" : "Allergy record"
                }
              ]
            },
	        "entry" : [
	        	
		        {
		          "reference" : "urn:uuid:d6e0b640-1fda-41ae-871e-405794c3083a",
		          "display" : "AllergyIntolerance"
		        }
		        
		     ]
	      },
      
      
	      {
	        "title" : "Procedure",
	        "code" : {
	          "coding" : [{
                  "system" : "http://snomed.info/sct",
                  "code" : "371525003",
                  "display" : "Clinical procedure report"
                }]
	        },
	        "entry" : [
	        	
		        {
		          "reference" : "urn:uuid:e82f9945-fac4-4593-9a8b-761ee1af4e8a",
		          "display" : "Procedure"
		        }
		        
		     ]
	      },
      
       
      {
        "title" : "Investigation Advice",
        "code" : {
          "coding" : [{
            "system" : "http://snomed.info/sct",
            "code" : "721963009",
            "display" : "Order document"
          }]
        },
        "entry" : [ 
         
        {
          "reference" : "urn:uuid:a507529d-b0c4-43da-acf4-9f8cd1b858c2",
          "display" : "ServiceRequest"
        },
        {
          "reference" : "urn:uuid:cdf76c41-65bd-4748-a960-aae6724badb9",
          "display" : "ServiceRequest"
        },
        {
          "reference" : "urn:uuid:ffebdf85-d0c5-42c5-a55a-69d8e5f9c009",
          "display" : "ServiceRequest"
        }
        
        ]
      },
      
      
      {
        "title" : "Medications",
        "code" : {
          "coding" : [{
            "system" : "http://snomed.info/sct",
            "code" : "721912009",
            "display" : "Medication summary document"
          }]
        },
        "entry" : [{
          "reference" : "urn:uuid:78d73c87-0221-4330-9768-1eb518cc520f",
          "display" : "MedicationStatement"
        },
        
        {
          "reference" : "urn:uuid:0466a4a8-08dc-4e9c-97c2-bea454b55901",
          "display" : "MedicationRequest"
        }
        
        ]
      },
      
      {
        "title" : "Procedure",
        "code" : {
          "coding" : [{
            "system" : "http://snomed.info/sct",
            "code" : "371525003",
            "display" : "Clinical procedure report"
          }]
        },
        "entry" : [{
          "reference" : "urn:uuid:1cba7eda-9163-4a85-ac35-ea551f9e8eb0",
          "display" : "Procedure"
        }]
      },
      
      {
        "title" : "Follow Up",
        "code" : {
          "coding" : [{
            "system" : "http://snomed.info/sct",
            "code" : "736271009",
            "display" : "Outpatient care plan"
          }]
        },
        "entry" : [{
          "reference" : "urn:uuid:f11c5c80-d9d7-4eb7-8900-efc8b4349084",
          "display" : "Appointment"
        }]
      },
      
      {
        "title" : "Document Reference",
        "code" : {
          "coding" : [{
            "system" : "http://snomed.info/sct",
            "code" : "371530004",
            "display" : "Clinical consultation report"
          }]
        },
        "entry" : [{
          "reference" : "urn:uuid:44486a09-bcad-420b-ba14-b769fafb7f84",
          "display" : "DocumentReference"
        }]
      }]
    }
  },
  {
    "fullUrl" : "urn:uuid:375003fb-f56d-4641-a0de-f87aa1da3f76",
    "resource" : {
      "resourceType" : "Practitioner",
      "id" : "375003fb-f56d-4641-a0de-f87aa1da3f76",
      "meta" : {
        "versionId" : "1",
        "lastUpdated" : "2020-07-13T15:32:26.605+05:30",
        "profile" : ["https://nrces.in/ndhm/fhir/r4/StructureDefinition/Practitioner"]
      },
      "text" : {
        "status" : "generated",
        "div" : "<div xmlns=\"http://www.w3.org/1999/xhtml\" xml:lang=\"en-IN\" lang=\"en-IN\">Dr Amruta kadam</div>"
      },
      "identifier" : [{
        "type" : {
          "coding" : [{
            "system" : "http://terminology.hl7.org/CodeSystem/v2-0203",
            "code" : "MD",
            "display" : "Medical License number"
          }]
        },
        "system" : "https://doctor.ndhm.gov.in",
        "value" : "123456"
      }],
      "name" : [{
        "text" : "Dr Amruta kadam"
      }]
    }
  },
  {
    "fullUrl" : "urn:uuid:928a6d70-b826-4432-9c9b-686cbfe94520",
    "resource" : {
      "resourceType" : "Organization",
      "id" : "928a6d70-b826-4432-9c9b-686cbfe94520",
      "meta" : {
        "profile" : ["https://nrces.in/ndhm/fhir/r4/StructureDefinition/Organization"]
      },
      "text" : {
        "status" : "generated",
        "div" : "<div xmlns=\"http://www.w3.org/1999/xhtml\"><p><b>Generated Narrative: Organization</b><a name=\"928a6d70-b826-4432-9c9b-686cbfe94520\"> </a></p><div style=\"display: inline-block; background-color: #d9e0e7; padding: 6px; margin: 4px; border: 1px solid #8da1b4; border-radius: 5px; line-height: 60%\"><p style=\"margin-bottom: 0px\">Resource Organization &quot;928a6d70-b826-4432-9c9b-686cbfe94520&quot; </p><p style=\"margin-bottom: 0px\">Profile: <a href=\"StructureDefinition-Organization.html\">Organization</a></p></div><p><b>identifier</b>: Provider number/4567823</p><p><b>name</b>: Chhota Sion Hospital</p><p><b>telecom</b>: <a href=\"tel:\"></a>, <a href=\"mailto:\"></a></p></div>"
      },
      "identifier" : [{
        "type" : {
          "coding" : [{
            "system" : "http://terminology.hl7.org/CodeSystem/v2-0203",
            "code" : "PRN",
            "display" : "Provider number"
          }]
        },
        "system" : "https://facility.ndhm.gov.in",
        "value" : "123456"
      }],
      "address":[{"text":"Mumbai,Maharashtra,India"}],
      "name" : "Chhota Sion Hospital",
      "telecom" : [ ]
    }
  },
  {
    "fullUrl" : "urn:uuid:9dfd6d8c-4a2f-441e-b082-fe6fc4a3b9c0",
    "resource" : {
      "resourceType" : "Patient",
      "id" : "9dfd6d8c-4a2f-441e-b082-fe6fc4a3b9c0",
      "meta" : {
        "versionId" : "1",
        "lastUpdated" : "2020-07-14T14:58:58.181+05:30",
        "profile" : ["https://nrces.in/ndhm/fhir/r4/StructureDefinition/Patient"]
      },
      "text" : {
        "status" : "generated",
        "div" : "<div xmlns=\"http://www.w3.org/1999/xhtml\"><p><b>Generated Narrative: Patient</b><a name=\"9dfd6d8c-4a2f-441e-b082-fe6fc4a3b9c0\"> </a></p><div style=\"display: inline-block; background-color: #d9e0e7; padding: 6px; margin: 4px; border: 1px solid #8da1b4; border-radius: 5px; line-height: 60%\"><p style=\"margin-bottom: 0px\">Resource Patient &quot;9dfd6d8c-4a2f-441e-b082-fe6fc4a3b9c0&quot; Version &quot;1&quot; Updated &quot;2020-07-15 14:58:58+0530&quot; </p><p style=\"margin-bottom: 0px\">Profile: <a href=\"StructureDefinition-Patient.html\">Patient</a></p></div><p><b>identifier</b>: Medical record number/22-7225-4829-5255</p><p><b>name</b>: Madhura Adwant</p><p><b>telecom</b>: <a href=\"tel:+919818512600\">+919818512600</a></p><p><b>gender</b>: female</p><p><b>birthDate</b>: 1981-01-12</p></div>"
      },
      "identifier" : [{
        "type" : {
          "coding" : [{
            "system" : "http://terminology.hl7.org/CodeSystem/v2-0203",
            "code" : "MR",
            "display" : "Medical record number"
          }]
        },
        "system" : "https://healthid.ndhm.gov.in",
        "value" : "22-7225-4829-5255"
      }],
      "name" : [{
        "text" : "Madhura Adwant"
      }],
       
      "telecom" : [{
        "system" : "phone",
        "value" : "8275514327",
        "use" : "home"
      }],
      
      "gender" : "female"
      
      ,
      "birthDate" : "1995-03-22"
      
    }
  },
  {
    "fullUrl" : "urn:uuid:a84bc585-a618-420b-ba92-98acf97c1506",
    "resource" : {
      "resourceType" : "Encounter",
      "id" : "a84bc585-a618-420b-ba92-98acf97c1506",
      "meta" : {
        "lastUpdated" : "2020-07-16T14:58:58.181+05:30",
        "profile" : ["https://nrces.in/ndhm/fhir/r4/StructureDefinition/Encounter"]
      },
      "text" : {
        "status" : "generated",
        "div" : "<div xmlns=\"http://www.w3.org/1999/xhtml\"><p><b>Generated Narrative: Encounter</b><a name=\"a84bc585-a618-420b-ba92-98acf97c1506\"> </a></p><div style=\"display: inline-block; background-color: #d9e0e7; padding: 6px; margin: 4px; border: 1px solid #8da1b4; border-radius: 5px; line-height: 60%\"><p style=\"margin-bottom: 0px\">Resource Encounter &quot;a84bc585-a618-420b-ba92-98acf97c1506&quot; Updated &quot;2020-07-17 14:58:58+0530&quot; </p><p style=\"margin-bottom: 0px\">Profile: <a href=\"StructureDefinition-Encounter.html\">Encounter</a></p></div><p><b>identifier</b>: <code>https://ndhm.in</code>/S100</p><p><b>status</b>: finished</p><p><b>class</b>: ambulatory (Details: http://terminology.hl7.org/CodeSystem/v3-ActCode code AMB = 'ambulatory', stated as 'ambulatory')</p><p><b>subject</b>: <a href=\"#Patient_9dfd6d8c-4a2f-441e-b082-fe6fc4a3b9c0\">See above (urn:uuid:9dfd6d8c-4a2f-441e-b082-fe6fc4a3b9c0: Patient)</a></p><p><b>period</b>: 2020-07-18 14:58:58+0530 --&gt; (ongoing)</p><blockquote><p><b>diagnosis</b></p><p><b>condition</b>: <a href=\"#Condition_1\">See above (urn:uuid:b650b103-5eee-43c3-b53a-228872e77488: Condition)</a></p><p><b>use</b>: Chief complaint <span style=\"background: LightGoldenRodYellow; margin: 4px; border: 1px solid khaki\"> (<a href=\"https://browser.ihtsdotools.org/\">SNOMED CT</a>#33962009)</span></p></blockquote><blockquote><p><b>diagnosis</b></p><p><b>condition</b>: <a href=\"#Condition_555ae62e-12b7-4b6c-927c-50f391a69d0e\">See above (urn:uuid:555ae62e-12b7-4b6c-927c-50f391a69d0e: Condition)</a></p><p><b>use</b>: Preliminary diagnosis <span style=\"background: LightGoldenRodYellow; margin: 4px; border: 1px solid khaki\"> (<a href=\"https://browser.ihtsdotools.org/\">SNOMED CT</a>#148006)</span></p></blockquote></div>"
      },
      "identifier" : [{
        "system" : "https://ndhm.in",
        "value" : "S100"
      }],
      "status" : "finished",
      "class" : {
        "system" : "http://terminology.hl7.org/CodeSystem/v3-ActCode",
        "code" : "AMB",
        "display" : "ambulatory"
      },
      "subject" : {
        "reference" : "urn:uuid:9dfd6d8c-4a2f-441e-b082-fe6fc4a3b9c0",
        "display" : "Patient"
      },
      "period" : {
        "start" : "2025-04-04T12:31:24.718Z"
      },
      "diagnosis" : [{
        "condition" : {
          "reference" : "urn:uuid:b650b103-5eee-43c3-b53a-228872e77488",
          "display" : "Condition"
        },
        "use" : {
          "coding" : [{
            "system" : "http://snomed.info/sct",
            "code" : "33962009",
            "display" : "Chief complaint"
          }]
        }
      },
      {
        "condition" : {
          "reference" : "urn:uuid:555ae62e-12b7-4b6c-927c-50f391a69d0e",
          "display" : "Condition"
        },
        "use" : {
          "coding" : [{
            "system" : "http://snomed.info/sct",
            "code" : "148006",
            "display" : "Preliminary diagnosis"
          }]
        }
      }]
    }
  },
  
  {
    "fullUrl" : "urn:uuid:f11c5c80-d9d7-4eb7-8900-efc8b4349084",
    "resource" : {
      "resourceType" : "Appointment",
      "id" : "1",
      "meta" : {
        "profile" : ["https://nrces.in/ndhm/fhir/r4/StructureDefinition/Appointment"]
      },
      "text" : {
        "status" : "generated",
        "div" : "<div xmlns=\"http://www.w3.org/1999/xhtml\"><p><b>Generated Narrative: Appointment</b><a name=\"1\"> </a></p><div style=\"display: inline-block; background-color: #d9e0e7; padding: 6px; margin: 4px; border: 1px solid #8da1b4; border-radius: 5px; line-height: 60%\"><p style=\"margin-bottom: 0px\">Resource Appointment &quot;1&quot; </p><p style=\"margin-bottom: 0px\">Profile: <a href=\"StructureDefinition-Appointment.html\">Appointment</a></p></div><p><b>status</b>: booked</p><p><b>serviceCategory</b>: General medical practice <span style=\"background: LightGoldenRodYellow; margin: 4px; border: 1px solid khaki\"> (<a href=\"https://browser.ihtsdotools.org/\">SNOMED CT</a>#408443003)</span></p><p><b>serviceType</b>: Consultation <span style=\"background: LightGoldenRodYellow; margin: 4px; border: 1px solid khaki\"> (<a href=\"https://browser.ihtsdotools.org/\">SNOMED CT</a>#11429006)</span></p><p><b>appointmentType</b>: Follow-up visit <span style=\"background: LightGoldenRodYellow; margin: 4px; border: 1px solid khaki\"> (<a href=\"https://browser.ihtsdotools.org/\">SNOMED CT</a>#185389009)</span></p><p><b>description</b>: checkup</p><p><b>start</b>: 2025-04-04</p><p><b>end</b>: 2025-04-05</p><p><b>created</b>: 2025-04-04T12:13:01Z</p><blockquote><p><b>participant</b></p><p><b>actor</b>: <a href=\"#Patient_9dfd6d8c-4a2f-441e-b082-fe6fc4a3b9c0\">See above (urn:uuid:9dfd6d8c-4a2f-441e-b082-fe6fc4a3b9c0: Patient)</a></p><p><b>status</b>: accepted</p></blockquote><blockquote><p><b>participant</b></p><p><b>actor</b>: <a href=\"#Practitioner_375003fb-f56d-4641-a0de-f87aa1da3f76\">See above (urn:uuid:375003fb-f56d-4641-a0de-f87aa1da3f76: Practitioner)</a></p><p><b>status</b>: accepted</p></blockquote></div>"
      },
      "status" : "booked",
      "serviceCategory" : [{
        "coding" : [{
          "system" : "http://snomed.info/sct",
          "code" : "408443003",
          "display" : "General medical practice"
        }]
      }],
      "serviceType" : [{
        "coding" : [{
          "system" : "http://snomed.info/sct",
          "code" : "11429006",
          "display" : "Consultation"
        }]
      }],
      "appointmentType" : {
        "coding" : [{
          "system" : "http://snomed.info/sct",
          "code" : "185389009",
          "display" : "Follow-up visit"
        }]
      },
     
      "description" : "checkup",
      "start" : "2025-04-04",
      "end" : "2025-04-05",
      "created" : "2025-04-04T12:13:01Z",
     "participant" : [{
        "actor" : {
          "reference" : "urn:uuid:9dfd6d8c-4a2f-441e-b082-fe6fc4a3b9c0",
          "display" : "Patient"
        },
        "status" : "accepted"
      },
      {
        "actor" : {
          "reference" : "urn:uuid:375003fb-f56d-4641-a0de-f87aa1da3f76",
          "display" : "Practitioner"
        },
        "status" : "accepted"
      }]
    }
  },
  
  
    
  {
    "fullUrl" : "urn:uuid:c90cd6c6-25aa-449d-a463-9635dbb0dcc0",
    "resource" : {
      "resourceType" : "Condition",
      "id" : "1",
      "meta" : {
        "profile" : ["https://nrces.in/ndhm/fhir/r4/StructureDefinition/Condition"]
      },
      "text" : {
        "status" : "generated",
        "div" : "<div xmlns=\"http://www.w3.org/1999/xhtml\"><p><b>Generated Narrative: Condition</b><a name=\"1\"> </a></p><div style=\"display: inline-block; background-color: #d9e0e7; padding: 6px; margin: 4px; border: 1px solid #8da1b4; border-radius: 5px; line-height: 60%\"><p style=\"margin-bottom: 0px\">Resource Condition &quot;1&quot; </p><p style=\"margin-bottom: 0px\">Profile: <a href=\"StructureDefinition-Condition.html\">Condition</a></p></div><p><b>clinicalStatus</b>: Active <span style=\"background: LightGoldenRodYellow; margin: 4px; border: 1px solid khaki\"> (<a href=\"http://terminology.hl7.org/5.3.0/CodeSystem-condition-clinical.html\">Condition Clinical Status Codes</a>#active)</span></p><p><b>code</b>: Foot swelling <span style=\"background: LightGoldenRodYellow; margin: 4px; border: 1px solid khaki\"> (<a href=\"https://browser.ihtsdotools.org/\">SNOMED CT</a>#297142003)</span></p><p><b>subject</b>: <a href=\"#Patient_9dfd6d8c-4a2f-441e-b082-fe6fc4a3b9c0\">See above (urn:uuid:9dfd6d8c-4a2f-441e-b082-fe6fc4a3b9c0: Patient)</a></p></div>"
      },
      "clinicalStatus" : {
        "coding" : [{
          "system" : "http://terminology.hl7.org/CodeSystem/condition-clinical",
          "code" : "active",
          "display" : "Active"
        }]
      },
      "code" : {
        "coding" : [{
          "system" : "http://snomed.info/sct",
          "code" : "297142003",
          "display" : "Fever"
        }],
        "text" : "Fever"
      },
      "recordedDate" : "2025-04-04T12:31:24.718Z",
      "subject" : {
        "reference" : "urn:uuid:9dfd6d8c-4a2f-441e-b082-fe6fc4a3b9c0",
        "display" : "Patient"
      }
    }
  },
  
  
   
	 
	 {
      "fullUrl" : "urn:uuid:e82f9945-fac4-4593-9a8b-761ee1af4e8a",
      "resource" : {
        "resourceType" : "Procedure",
        "id" : "1cba7eda-9163-4a85-ac35-ea551f9e8eb0",
        "meta" : {
          "profile" : [
             "https://nrces.in/ndhm/fhir/r4/StructureDefinition/Procedure"
          ]
        },
        "text" : {
          "status" : "generated",
          "div" : "<div xmlns=\"http://www.w3.org/1999/xhtml\"><p><b>Generated Narrative: Procedure</b><a name=\"1cba7eda-9163-4a85-ac35-ea551f9e8eb0\"> </a></p><div style=\"display: inline-block; background-color: #d9e0e7; padding: 6px; margin: 4px; border: 1px solid #8da1b4; border-radius: 5px; line-height: 60%\"><p style=\"margin-bottom: 0px\">Resource Procedure &quot;1cba7eda-9163-4a85-ac35-ea551f9e8eb0&quot; </p><p style=\"margin-bottom: 0px\">Profile: <a href=\"StructureDefinition-Procedure.html\">Procedure</a></p></div><p><b>status</b>: completed</p><p><b>code</b>: Assessment of diabetic foot ulcer <span style=\"background: LightGoldenRodYellow; margin: 4px; border: 1px solid khaki\"> (<a href=\"https://browser.ihtsdotools.org/\">SNOMED CT</a>#713130008)</span></p><p><b>subject</b>: <a href=\"#Patient_f8d9e19e-5598-428c-ae03-b1cd44968b41\">See above (urn:uuid:f8d9e19e-5598-428c-ae03-b1cd44968b41: Patient)</a></p><p><b>performed</b>: 2019-05-12</p><p><b>followUp</b>: Diabetes medication review <span style=\"background: LightGoldenRodYellow; margin: 4px; border: 1px solid khaki\"> (<a href=\"https://browser.ihtsdotools.org/\">SNOMED CT</a>#394725008)</span></p></div>"
        },
        "status" : "completed",
        "code" : {
          "coding" : [
            {
              "system" : "http://snomed.info/sct",
              "code" : "713130008",
              "display" : "checkup "
            }
          ],
          "text" : "checkup "
        },
        "subject" : {
          "reference" : "urn:uuid:9dfd6d8c-4a2f-441e-b082-fe6fc4a3b9c0",
          "display" : "Patient"
        },
        "performedDateTime" : "2025-04-04T12:23:23.000Z",
        "followUp" : [
          {
            "coding" : [
              {
                "system" : "http://snomed.info/sct",
                "code" : "394725008",
                "display" : "yes"
              }
            ],
            "text" : "yes"
          }
        ]
      }
    }, 
	
  
  
	  {
      "fullUrl" : "urn:uuid:d6e0b640-1fda-41ae-871e-405794c3083a",
      "resource" : {
        "resourceType" : "AllergyIntolerance",
        "id" : "ee04915e-4df7-40a8-918c-a003368dd2cd",
        "meta" : {
          "profile" : [
             "https://nrces.in/ndhm/fhir/r4/StructureDefinition/AllergyIntolerance"
          ]
        },
        "text" : {
          "status" : "generated",
          "div" : "<div xmlns=\"http://www.w3.org/1999/xhtml\"><p><b>Generated Narrative: AllergyIntolerance</b><a name=\"ee04915e-4df7-40a8-918c-a003368dd2cd\"> </a></p><div style=\"display: inline-block; background-color: #d9e0e7; padding: 6px; margin: 4px; border: 1px solid #8da1b4; border-radius: 5px; line-height: 60%\"><p style=\"margin-bottom: 0px\">Resource AllergyIntolerance &quot;ee04915e-4df7-40a8-918c-a003368dd2cd&quot; </p><p style=\"margin-bottom: 0px\">Profile: <a href=\"StructureDefinition-AllergyIntolerance.html\">AllergyIntolerance</a></p></div><p><b>clinicalStatus</b>: Active <span style=\"background: LightGoldenRodYellow; margin: 4px; border: 1px solid khaki\"> (<a href=\"http://terminology.hl7.org/5.3.0/CodeSystem-allergyintolerance-clinical.html\">AllergyIntolerance Clinical Status Codes</a>#active)</span></p><p><b>verificationStatus</b>: Confirmed <span style=\"background: LightGoldenRodYellow; margin: 4px; border: 1px solid khaki\"> (<a href=\"http://terminology.hl7.org/5.3.0/CodeSystem-allergyintolerance-verification.html\">AllergyIntolerance Verification Status</a>#confirmed)</span></p><p><b>code</b>: NKA <span style=\"background: LightGoldenRodYellow; margin: 4px; border: 1px solid khaki\"> (<a href=\"https://browser.ihtsdotools.org/\">SNOMED CT</a>#716186003 &quot;No known allergy&quot;)</span></p><p><b>patient</b>: <a href=\"#Patient_f8d9e19e-5598-428c-ae03-b1cd44968b41\">See above (urn:uuid:f8d9e19e-5598-428c-ae03-b1cd44968b41: Patient)</a></p><p><b>recordedDate</b>: 2025-04-04</p><p><b>recorder</b>: <a href=\"#Practitioner_dc36f7c9-7ea5-4984-a02e-7102c215db17\">See above (urn:uuid:dc36f7c9-7ea5-4984-a02e-7102c215db17: Practitioner)</a></p><p><b>note</b>: The patient reports no other known allergy.</p></div>"
        },
        "clinicalStatus" : {
          "coding" : [
            {
              "system" : "http://terminology.hl7.org/CodeSystem/allergyintolerance-clinical",
              "code" : "active",
              "display" : "true"
            }
          ],
          "text":"true"
        },
        "verificationStatus" : {
          "coding" : [
            {
              "system" : "http://terminology.hl7.org/CodeSystem/allergyintolerance-verification",
              "code" : "confirmed",
              "display" : "verified"
            }
          ],
          "text":"verified"
        },
        "code" : {
          "coding" : [
            {
              "system" : "http://snomed.info/sct",
              "code" : "716186003",
              "display" : "smoke"
            }
          ],
          "text" : "smoke"
        },
        "patient" : {
          "reference" : "urn:uuid:9dfd6d8c-4a2f-441e-b082-fe6fc4a3b9c0",
          "display" : "Patient"
        },
        "recordedDate" : "2025-04-04T12:31:24.718Z",
        "recorder" : {
          "reference" : "urn:uuid:375003fb-f56d-4641-a0de-f87aa1da3f76",
          "display" : "Practitioner"
        },
        "note" : [
          {
            "text" : ""
          }
        ]
      }
    },
	
  
	 
	    
  {
    "fullUrl" : "urn:uuid:ad926ec6-903a-4fdb-81fb-a2017d6e7e1b",
    "resource" : {
      "resourceType" : "Condition",
      "id" : "2",
      "meta" : {
        "profile" : ["https://nrces.in/ndhm/fhir/r4/StructureDefinition/Condition"]
      },
      "text" : {
        "status" : "generated",
        "div" : "<div xmlns=\"http://www.w3.org/1999/xhtml\" xml:lang=\"en-IN\" lang=\"en-IN\">Past Medical Problem of Diabetes mellitus type 1</div>"
      },
      "clinicalStatus" : {
        "coding" : [{
          "system" : "http://terminology.hl7.org/CodeSystem/condition-clinical",
          "code" : "recurrence",
          "display" : "Recurrence"
        }]
      },
      "code" : {
        "coding" : [{
          "system" : "http://snomed.info/sct",
          "code" : "46635009",
          "display" : "koch: yes"
        }],
        "text" : "koch: yes"
      },
      "recordedDate" : "2025-04-04T12:31:24.718Z",
      "subject" : {
        "reference" : "urn:uuid:9dfd6d8c-4a2f-441e-b082-fe6fc4a3b9c0",
        "display" : "Patient"
      }
    }
  },
  {
    "fullUrl" : "urn:uuid:d5e2f870-2f8d-4cf9-9fce-e6d1e8514696",
    "resource" : {
      "resourceType" : "Condition",
      "id" : "2",
      "meta" : {
        "profile" : ["https://nrces.in/ndhm/fhir/r4/StructureDefinition/Condition"]
      },
      "text" : {
        "status" : "generated",
        "div" : "<div xmlns=\"http://www.w3.org/1999/xhtml\" xml:lang=\"en-IN\" lang=\"en-IN\">Past Medical Problem of Diabetes mellitus type 1</div>"
      },
      "clinicalStatus" : {
        "coding" : [{
          "system" : "http://terminology.hl7.org/CodeSystem/condition-clinical",
          "code" : "recurrence",
          "display" : "Recurrence"
        }]
      },
      "code" : {
        "coding" : [{
          "system" : "http://snomed.info/sct",
          "code" : "46635009",
          "display" : "Koch contact: no"
        }],
        "text" : "Koch contact: no"
      },
      "recordedDate" : "2025-04-04T12:31:24.718Z",
      "subject" : {
        "reference" : "urn:uuid:9dfd6d8c-4a2f-441e-b082-fe6fc4a3b9c0",
        "display" : "Patient"
      }
    }
  },
  {
    "fullUrl" : "urn:uuid:8b0124f6-fbb3-40ae-b6db-f92e51036617",
    "resource" : {
      "resourceType" : "Condition",
      "id" : "2",
      "meta" : {
        "profile" : ["https://nrces.in/ndhm/fhir/r4/StructureDefinition/Condition"]
      },
      "text" : {
        "status" : "generated",
        "div" : "<div xmlns=\"http://www.w3.org/1999/xhtml\" xml:lang=\"en-IN\" lang=\"en-IN\">Past Medical Problem of Diabetes mellitus type 1</div>"
      },
      "clinicalStatus" : {
        "coding" : [{
          "system" : "http://terminology.hl7.org/CodeSystem/condition-clinical",
          "code" : "recurrence",
          "display" : "Recurrence"
        }]
      },
      "code" : {
        "coding" : [{
          "system" : "http://snomed.info/sct",
          "code" : "46635009",
          "display" : "Hospitalisation: yes"
        }],
        "text" : "Hospitalisation: yes"
      },
      "recordedDate" : "2025-04-04T12:31:24.718Z",
      "subject" : {
        "reference" : "urn:uuid:9dfd6d8c-4a2f-441e-b082-fe6fc4a3b9c0",
        "display" : "Patient"
      }
    }
  },
  {
    "fullUrl" : "urn:uuid:9f4d8708-a54e-4f26-a314-7a5329269002",
    "resource" : {
      "resourceType" : "Condition",
      "id" : "2",
      "meta" : {
        "profile" : ["https://nrces.in/ndhm/fhir/r4/StructureDefinition/Condition"]
      },
      "text" : {
        "status" : "generated",
        "div" : "<div xmlns=\"http://www.w3.org/1999/xhtml\" xml:lang=\"en-IN\" lang=\"en-IN\">Past Medical Problem of Diabetes mellitus type 1</div>"
      },
      "clinicalStatus" : {
        "coding" : [{
          "system" : "http://terminology.hl7.org/CodeSystem/condition-clinical",
          "code" : "recurrence",
          "display" : "Recurrence"
        }]
      },
      "code" : {
        "coding" : [{
          "system" : "http://snomed.info/sct",
          "code" : "46635009",
          "display" : "Surgery: no"
        }],
        "text" : "Surgery: no"
      },
      "recordedDate" : "2025-04-04T12:31:24.718Z",
      "subject" : {
        "reference" : "urn:uuid:9dfd6d8c-4a2f-441e-b082-fe6fc4a3b9c0",
        "display" : "Patient"
      }
    }
  },
  
  
 
   
	    
  {
    "fullUrl" : "urn:uuid:a507529d-b0c4-43da-acf4-9f8cd1b858c2",
    "resource" : {
      "resourceType" : "ServiceRequest",
      "id" : "a507529d-b0c4-43da-acf4-9f8cd1b858c2",
      "meta" : {
        "profile" : ["https://nrces.in/ndhm/fhir/r4/StructureDefinition/ServiceRequest"]
      },
      "text" : {
        "status" : "generated",
        "div" : "<div xmlns=\"http://www.w3.org/1999/xhtml\"><p><b>Generated Narrative: ServiceRequest</b><a name=\"3875cb2d-c589-41d8-87c2-1f488e743184\"> </a></p><div style=\"display: inline-block; background-color: #d9e0e7; padding: 6px; margin: 4px; border: 1px solid #8da1b4; border-radius: 5px; line-height: 60%\"><p style=\"margin-bottom: 0px\">Resource ServiceRequest &quot;3875cb2d-c589-41d8-87c2-1f488e743184&quot; </p><p style=\"margin-bottom: 0px\">Profile: <a href=\"StructureDefinition-ServiceRequest.html\">ServiceRequest</a></p></div><p><b>status</b>: active</p><p><b>intent</b>: order</p><p><b>category</b>: Laboratory procedure <span style=\"background: LightGoldenRodYellow; margin: 4px; border: 1px solid khaki\"> (<a href=\"https://browser.ihtsdotools.org/\">SNOMED CT</a>#108252007)</span></p><p><b>code</b>: Fasting lipid profile <span style=\"background: LightGoldenRodYellow; margin: 4px; border: 1px solid khaki\"> (<a href=\"https://browser.ihtsdotools.org/\">SNOMED CT</a>#252150008)</span></p><p><b>subject</b>: <a href=\"#Patient_9dfd6d8c-4a2f-441e-b082-fe6fc4a3b9c0\">See above (urn:uuid:9dfd6d8c-4a2f-441e-b082-fe6fc4a3b9c0: Patient)</a></p><p><b>authoredOn</b>: 2020-07-24 15:32:26+0530</p><p><b>requester</b>: <a href=\"#Practitioner_375003fb-f56d-4641-a0de-f87aa1da3f76\">See above (urn:uuid:375003fb-f56d-4641-a0de-f87aa1da3f76: Dr Amruta kadam)</a></p></div>"
      },
      "status" : "active",
      "intent" : "order",
      "category" : [{
        "coding" : [{
          "system" : "http://snomed.info/sct",
          "code" : "108252007",
          "display" : "Laboratory procedure"
        }]
      }],
      "code" : {
        "coding" : [{
          "system" : "http://snomed.info/sct",
          "code" : "252150008",
          "display" : "Hematology test: CBC,ESR,PLATELET COUNT"
        }],
        "text" : "Hematology test: CBC,ESR,PLATELET COUNT"
      },
      "subject" : {
        "reference" : "urn:uuid:9dfd6d8c-4a2f-441e-b082-fe6fc4a3b9c0",
        "display" : "Patient"
      },
      "authoredOn" : "2025-04-04T12:31:24.718Z",
      "requester" : {
        "reference" : "urn:uuid:375003fb-f56d-4641-a0de-f87aa1da3f76",
        "display" : "Dr Amruta kadam"
      }
    }
  },
  {
    "fullUrl" : "urn:uuid:cdf76c41-65bd-4748-a960-aae6724badb9",
    "resource" : {
      "resourceType" : "ServiceRequest",
      "id" : "cdf76c41-65bd-4748-a960-aae6724badb9",
      "meta" : {
        "profile" : ["https://nrces.in/ndhm/fhir/r4/StructureDefinition/ServiceRequest"]
      },
      "text" : {
        "status" : "generated",
        "div" : "<div xmlns=\"http://www.w3.org/1999/xhtml\"><p><b>Generated Narrative: ServiceRequest</b><a name=\"3875cb2d-c589-41d8-87c2-1f488e743184\"> </a></p><div style=\"display: inline-block; background-color: #d9e0e7; padding: 6px; margin: 4px; border: 1px solid #8da1b4; border-radius: 5px; line-height: 60%\"><p style=\"margin-bottom: 0px\">Resource ServiceRequest &quot;3875cb2d-c589-41d8-87c2-1f488e743184&quot; </p><p style=\"margin-bottom: 0px\">Profile: <a href=\"StructureDefinition-ServiceRequest.html\">ServiceRequest</a></p></div><p><b>status</b>: active</p><p><b>intent</b>: order</p><p><b>category</b>: Laboratory procedure <span style=\"background: LightGoldenRodYellow; margin: 4px; border: 1px solid khaki\"> (<a href=\"https://browser.ihtsdotools.org/\">SNOMED CT</a>#108252007)</span></p><p><b>code</b>: Fasting lipid profile <span style=\"background: LightGoldenRodYellow; margin: 4px; border: 1px solid khaki\"> (<a href=\"https://browser.ihtsdotools.org/\">SNOMED CT</a>#252150008)</span></p><p><b>subject</b>: <a href=\"#Patient_9dfd6d8c-4a2f-441e-b082-fe6fc4a3b9c0\">See above (urn:uuid:9dfd6d8c-4a2f-441e-b082-fe6fc4a3b9c0: Patient)</a></p><p><b>authoredOn</b>: 2020-07-24 15:32:26+0530</p><p><b>requester</b>: <a href=\"#Practitioner_375003fb-f56d-4641-a0de-f87aa1da3f76\">See above (urn:uuid:375003fb-f56d-4641-a0de-f87aa1da3f76: Dr Amruta kadam)</a></p></div>"
      },
      "status" : "active",
      "intent" : "order",
      "category" : [{
        "coding" : [{
          "system" : "http://snomed.info/sct",
          "code" : "108252007",
          "display" : "Laboratory procedure"
        }]
      }],
      "code" : {
        "coding" : [{
          "system" : "http://snomed.info/sct",
          "code" : "252150008",
          "display" : "Clinical pathology test: URINE CHYLOMICRON,BODY FLUID ROUTINE AND MICROSCOPY"
        }],
        "text" : "Clinical pathology test: URINE CHYLOMICRON,BODY FLUID ROUTINE AND MICROSCOPY"
      },
      "subject" : {
        "reference" : "urn:uuid:9dfd6d8c-4a2f-441e-b082-fe6fc4a3b9c0",
        "display" : "Patient"
      },
      "authoredOn" : "2025-04-04T12:31:24.718Z",
      "requester" : {
        "reference" : "urn:uuid:375003fb-f56d-4641-a0de-f87aa1da3f76",
        "display" : "Dr Amruta kadam"
      }
    }
  },
  {
    "fullUrl" : "urn:uuid:ffebdf85-d0c5-42c5-a55a-69d8e5f9c009",
    "resource" : {
      "resourceType" : "ServiceRequest",
      "id" : "ffebdf85-d0c5-42c5-a55a-69d8e5f9c009",
      "meta" : {
        "profile" : ["https://nrces.in/ndhm/fhir/r4/StructureDefinition/ServiceRequest"]
      },
      "text" : {
        "status" : "generated",
        "div" : "<div xmlns=\"http://www.w3.org/1999/xhtml\"><p><b>Generated Narrative: ServiceRequest</b><a name=\"3875cb2d-c589-41d8-87c2-1f488e743184\"> </a></p><div style=\"display: inline-block; background-color: #d9e0e7; padding: 6px; margin: 4px; border: 1px solid #8da1b4; border-radius: 5px; line-height: 60%\"><p style=\"margin-bottom: 0px\">Resource ServiceRequest &quot;3875cb2d-c589-41d8-87c2-1f488e743184&quot; </p><p style=\"margin-bottom: 0px\">Profile: <a href=\"StructureDefinition-ServiceRequest.html\">ServiceRequest</a></p></div><p><b>status</b>: active</p><p><b>intent</b>: order</p><p><b>category</b>: Laboratory procedure <span style=\"background: LightGoldenRodYellow; margin: 4px; border: 1px solid khaki\"> (<a href=\"https://browser.ihtsdotools.org/\">SNOMED CT</a>#108252007)</span></p><p><b>code</b>: Fasting lipid profile <span style=\"background: LightGoldenRodYellow; margin: 4px; border: 1px solid khaki\"> (<a href=\"https://browser.ihtsdotools.org/\">SNOMED CT</a>#252150008)</span></p><p><b>subject</b>: <a href=\"#Patient_9dfd6d8c-4a2f-441e-b082-fe6fc4a3b9c0\">See above (urn:uuid:9dfd6d8c-4a2f-441e-b082-fe6fc4a3b9c0: Patient)</a></p><p><b>authoredOn</b>: 2020-07-24 15:32:26+0530</p><p><b>requester</b>: <a href=\"#Practitioner_375003fb-f56d-4641-a0de-f87aa1da3f76\">See above (urn:uuid:375003fb-f56d-4641-a0de-f87aa1da3f76: Dr Amruta kadam)</a></p></div>"
      },
      "status" : "active",
      "intent" : "order",
      "category" : [{
        "coding" : [{
          "system" : "http://snomed.info/sct",
          "code" : "108252007",
          "display" : "Laboratory procedure"
        }]
      }],
      "code" : {
        "coding" : [{
          "system" : "http://snomed.info/sct",
          "code" : "252150008",
          "display" : "Extremity X-ray Report"
        }],
        "text" : "Extremity X-ray Report"
      },
      "subject" : {
        "reference" : "urn:uuid:9dfd6d8c-4a2f-441e-b082-fe6fc4a3b9c0",
        "display" : "Patient"
      },
      "authoredOn" : "2025-04-04T12:31:24.718Z",
      "requester" : {
        "reference" : "urn:uuid:375003fb-f56d-4641-a0de-f87aa1da3f76",
        "display" : "Dr Amruta kadam"
      }
    }
  },
  
  
  {
    "fullUrl" : "urn:uuid:78d73c87-0221-4330-9768-1eb518cc520f",
    "resource" : {
      "resourceType" : "MedicationStatement",
      "id" : "78d73c87-0221-4330-9768-1eb518cc520f",
      "meta" : {
        "profile" : ["https://nrces.in/ndhm/fhir/r4/StructureDefinition/MedicationStatement"]
      },
      "text" : {
        "status" : "generated",
        "div" : "<div xmlns=\"http://www.w3.org/1999/xhtml\"><p><b>Generated Narrative: MedicationStatement</b><a name=\"78d73c87-0221-4330-9768-1eb518cc520f\"> </a></p><div style=\"display: inline-block; background-color: #d9e0e7; padding: 6px; margin: 4px; border: 1px solid #8da1b4; border-radius: 5px; line-height: 60%\"><p style=\"margin-bottom: 0px\">Resource MedicationStatement &quot;78d73c87-0221-4330-9768-1eb518cc520f&quot; </p><p style=\"margin-bottom: 0px\">Profile: <a href=\"StructureDefinition-MedicationStatement.html\">MedicationStatement</a></p></div><p><b>status</b>: completed</p><p><b>medication</b>: Telmisartan 20 mg oral tablet <span style=\"background: LightGoldenRodYellow; margin: 4px; border: 1px solid khaki\"> (<a href=\"https://browser.ihtsdotools.org/\">SNOMED CT</a>#134463001)</span></p><p><b>subject</b>: <a href=\"#Patient_9dfd6d8c-4a2f-441e-b082-fe6fc4a3b9c0\">See above (urn:uuid:9dfd6d8c-4a2f-441e-b082-fe6fc4a3b9c0: Patient)</a></p><p><b>dateAsserted</b>: 2020-02-02 14:58:58+0530</p></div>"
      },
      "status" : "completed",
      "medicationCodeableConcept" : {
        "coding" : [{
          "system" : "http://snomed.info/sct",
          "code" : "134463001",
          "display" : "-"
        }]
      },
      "subject" : {
        "reference" : "urn:uuid:9dfd6d8c-4a2f-441e-b082-fe6fc4a3b9c0",
        "display" : "Patient"
      },
      "dateAsserted" : "2025-04-04T12:13:01Z"
    }
  },
  
  {
    "fullUrl" : "urn:uuid:0466a4a8-08dc-4e9c-97c2-bea454b55901",
    "resource" : {
      "resourceType" : "MedicationRequest",
      "id" : "0466a4a8-08dc-4e9c-97c2-bea454b55901",
      "meta" : {
        "profile" : ["https://nrces.in/ndhm/fhir/r4/StructureDefinition/MedicationRequest"]
      },
      "text" : {
        "status" : "generated",
        "div" : "<div xmlns=\"http://www.w3.org/1999/xhtml\"><p><b>Generated Narrative: MedicationRequest</b><a name=\"78d73c87-0221-4330-9768-1eb518cc520f\"> </a></p><div style=\"display: inline-block; background-color: #d9e0e7; padding: 6px; margin: 4px; border: 1px solid #8da1b4; border-radius: 5px; line-height: 60%\"><p style=\"margin-bottom: 0px\">Resource MedicationRequest &quot;0466a4a8-08dc-4e9c-97c2-bea454b55901&quot; </p><p style=\"margin-bottom: 0px\">Profile: <a href=\"StructureDefinition-MedicationRequest.html\">MedicationRequest</a></p></div><p><b>status</b>: active</p><p><b>intent</b>: order</p><p><b>medication</b>: Neomycin 5 mg/g cutaneous ointment <span style=\"background: LightGoldenRodYellow; margin: 4px; border: 1px solid khaki\"> (<a href=\"https://browser.ihtsdotools.org/\">SNOMED CT</a>#353231006)</span></p><p><b>subject</b>: <a href=\"#Patient_9dfd6d8c-4a2f-441e-b082-fe6fc4a3b9c0\">See above (urn:uuid:9dfd6d8c-4a2f-441e-b082-fe6fc4a3b9c0: Madhura Adwant)</a></p><p><b>authoredOn</b>: 2025-04-04</p><p><b>requester</b>: <a href=\"#Practitioner_375003fb-f56d-4641-a0de-f87aa1da3f76\">See above (urn:uuid:375003fb-f56d-4641-a0de-f87aa1da3f76: Dr Amruta kadam)</a></p><p><b>reasonReference</b>: <a href=\"#Condition_1\">See above (urn:uuid:b650b103-5eee-43c3-b53a-228872e77488: Condition)</a></p><h3>DosageInstructions</h3><table class=\"grid\"><tr><td style=\"display: none\">-</td><td><b>AdditionalInstruction</b></td><td><b>Route</b></td></tr><tr><td style=\"display: none\">*</td><td>Twice a day <span style=\"background: LightGoldenRodYellow; margin: 4px; border: 1px solid khaki\"> (<a href=\"https://browser.ihtsdotools.org/\">SNOMED CT</a>#229799001)</span></td><td>Topical route <span style=\"background: LightGoldenRodYellow; margin: 4px; border: 1px solid khaki\"> (<a href=\"https://browser.ihtsdotools.org/\">SNOMED CT</a>#6064005)</span></td></tr></table></div>"
      },
      "status" : "active",
      "intent" : "order",
      "medicationCodeableConcept" : {
        "coding" : [{
          "system" : "http://snomed.info/sct",
          "code" : "353231006",
          "display" : "Tablet paracetamol  500mg - strip 10 tab"
        }],
        "text" : "Tablet paracetamol  500mg - strip 10 tab"
      },
      "subject" : {
        "reference" : "urn:uuid:9dfd6d8c-4a2f-441e-b082-fe6fc4a3b9c0",
        "display" : "Madhura Adwant"
      },
      "authoredOn" : "2025-04-04T12:31:24.718Z",
      "requester" : {
        "reference" : "urn:uuid:375003fb-f56d-4641-a0de-f87aa1da3f76",
        "display" : "Dr Amruta kadam"
      },
      "reasonCode" : [{
        "coding" : [{
          "system" : "http://snomed.info/sct",
          "code" : "789400009",
          "display" : "."
        }]
      }],
      "dosageInstruction" : [{
      	"text" : "Before Breakfast",
        "additionalInstruction" : [{
          "coding" : [{
            "system" : "http://snomed.info/sct",
            "code" : "229799001",
            "display": "Quantity: 2"
          }],
		  "text": "Quantity: 2"
        }],
        "route" : {
          "coding" : [{
            "system" : "http://snomed.info/sct",
            "code" : "6064005",
            "display": "Dosage: Before Breakfast"
          }],
          "text": "Dosage: Before Breakfast"
        },
        "method": {
          "coding": [ {
            "display": "Number Of Days: 2"
          } ],
		"text": "Number Of Days: 2"
        }
      }]
    }
  },
  
  {
    "fullUrl" : "urn:uuid:44486a09-bcad-420b-ba14-b769fafb7f84",
    "resource" : {
      "resourceType" : "DocumentReference",
      "id" : "44486a09-bcad-420b-ba14-b769fafb7f84",
      "meta" : {
        "profile" : ["https://nrces.in/ndhm/fhir/r4/StructureDefinition/DocumentReference"]
      },
      "text" : {
        "status" : "generated",
        "div" : "<div xmlns=\"http://www.w3.org/1999/xhtml\"><p><b>Generated Narrative: DocumentReference</b><a name=\"44486a09-bcad-420b-ba14-b769fafb7f84\"> </a></p><div style=\"display: inline-block; background-color: #d9e0e7; padding: 6px; margin: 4px; border: 1px solid #8da1b4; border-radius: 5px; line-height: 60%\"><p style=\"margin-bottom: 0px\">Resource DocumentReference &quot;44486a09-bcad-420b-ba14-b769fafb7f84&quot; </p><p style=\"margin-bottom: 0px\">Profile: <a href=\"StructureDefinition-DocumentReference.html\">DocumentReference</a></p></div><p><b>status</b>: current</p><p><b>docStatus</b>: final</p><p><b>type</b>: Laboratory report <span style=\"background: LightGoldenRodYellow; margin: 4px; border: 1px solid khaki\"> (<a href=\"https://browser.ihtsdotools.org/\">SNOMED CT</a>#4241000179101)</span></p><p><b>subject</b>: <a href=\"#Patient_9dfd6d8c-4a2f-441e-b082-fe6fc4a3b9c0\">See above (urn:uuid:9dfd6d8c-4a2f-441e-b082-fe6fc4a3b9c0: Patient)</a></p><blockquote><p><b>content</b></p><h3>Attachments</h3><table class=\"grid\"><tr><td style=\"display: none\">-</td><td><b>ContentType</b></td><td><b>Language</b></td><td><b>Data</b></td><td><b>Title</b></td><td><b>Creation</b></td></tr><tr><td style=\"display: none\">*</td><td>application/pdf</td><td>en-IN</td><td>(base64 data - 302995 bytes)</td><td>Laboratory report</td><td>2019-05-29 14:58:58+0530</td></tr></table></blockquote></div>"
      },
      "status" : "current",
      "docStatus" : "final",
      "type" : {
        "coding" : [{
          "system" : "http://snomed.info/sct",
          "code" : "4241000179101",
          "display" : "Laboratory report"
        }],
        "text" : "OPD Case Paper"
      },
      "subject" : {
        "reference" : "urn:uuid:9dfd6d8c-4a2f-441e-b082-fe6fc4a3b9c0",
        "display" : "Patient"
      },
      "content" : [{
        "attachment" : {
          "contentType" : "application/pdf",
          "language" : "en-IN",
          "data" :"",
          "title" : "OPD Case Paper",
          "creation" : "2025-04-04T12:13:01Z"
        }
      }]
    }
  }]
   
  ,
  "signature" : {
    "type" : [{
      "system" : "urn:iso-astm:E1762-95:2013",
      "code" : "1.2.840.10065.1.12.1.1",
      "display" : "Author's Signature"
    }],
    "when" : "2025-04-04T12:31:24.718Z",
    "who" : {
      "reference" : "urn:uuid:375003fb-f56d-4641-a0de-f87aa1da3f76",
      "display" : "Practitioner"
    },
    "sigFormat" : "image/jpeg",
    "data" : ""
  }
  
}